{
  "resourceType": "Bundle",
  "id": "clinical-document-as-transaction-bundle",
  "type": "transaction",
  "timestamp": "2024-05-07T13:28:17.000+00:00",
  "entry": [
    {
      "fullUrl": "https://example.com/Composition/clinical-document-composition-example1",
      "resource": {
        "resourceType": "Composition",
        "id": "clinical-document-composition-example1",
        "meta": {
          "lastUpdated": "2024-05-07T13:28:17.000+00:00",
          "profile": [
            "http://hl7.org/fhir/uv/clinical-document-ig/StructureDefinition/clinical-document-composition"
          ]
        },
        "text": {
          "status": "additional",
          "div": "<div xmlns=\"http://www.w3.org/1999/xhtml\">          <p><b>Discharge Summary</b></p>          <p><b>CC</b>: Dr. BettaB Careful</p>                   <p><b>status</b>: final</p>          <p><b>patient</b>: Eve Everywoman</p>          <p><b>author</b>: Doctor Dave / Good Health Clinic</p>          <p><b>encounter</b>: Inpatient encounter, 2024-05-03 - 2024-05-07</p>          <p><b>confidentiality</b>: N</p>          <p><b>Contained sections</b>: </p>          <ul>          <li>Reason for admission</li>          <li>Medications on Discharge</li>          <li>Known allergies</li>          </ul>          </div>"
        },
        "extension": [
          {
            "url": "http://hl7.org/fhir/5.0/StructureDefinition/extension-Composition.version",
            "valueInteger": 1715088497
          },
          {
            "extension": [
              {
                "url": "type",
                "valueCodeableConcept": {
                  "coding": [
                    {
                      "system": "http://terminology.hl7.org/CodeSystem/v3-ParticipationType",
                      "code": "PRCP",
                      "display": "primary information recipient"
                    }
                  ]
                }
              },
              {
                "url": "party",
                "valueReference": "https://example.com/Practitioner/example2"
              }
            ],
            "url": "http://hl7.org/fhir/uv/clinical-document-ig/StructureDefinition/ParticipantExtension"
          }
        ],
        "identifier": {
          "system": "https://example.com/compId",
          "value": "1d6d6eb8-7d08-4ce1-94d4-19cdaa76ad6f"
        },
        "status": "final",
        "type": {
          "coding": [
            {
              "system": "http://loinc.org",
              "code": "28655-9"
            }
          ],
          "text": "Attending Discharge summary"
        },
        "subject": {
          "reference": "https://example.com/Patient/d1",
          "display": "Eve Everywoman"
        },
        "encounter": {
          "reference": "https://example.com/Encounter/doc-example"
        },
        "date": "2024-05-07T13:28:17.000+00:00",
        "author": [
          {
            "reference": "https://example.com/Practitioner/example",
            "display": "Doctor Dave"
          }
        ],
        "title": "Discharge Summary",
        "attester": [
          {
	        "mode": "legal",
            "time": "2024-05-07",
            "party": {
              "reference": "https://example.com/Practitioner/example",
              "display": "Doctor Dave"
            }
          }
        ],
        "custodian": {
          "reference": "https://example.com/Organization/2.16.840.1.113883.19.5",
          "display": "Good Health Clinic"
        },
        "confidentiality": "N",
        "section": [
          {
            "title": "Reason for admission",
            "code": {
              "coding": [
                {
                  "system": "http://loinc.org",
                  "code": "29299-5",
                  "display": "Reason for visit Narrative"
                }
              ]
            },
            "text": {
              "status": "additional",
              "div": "<div xmlns=\"http://www.w3.org/1999/xhtml\">\n\n              <table>\n\n                <thead>\n\n                  <tr>\n\n                    <td>Details</td>\n\n                    <td/>\n\n                  </tr>\n\n                </thead>\n\n                <tbody>\n\n                  <tr>\n\n                    <td>Acute Asthmatic attack. Was wheezing for days prior to admission.</td>\n\n                    <td/>\n\n                  </tr>\n\n                </tbody>\n\n              </table>\n\n            </div>"
            },
            "entry": [
              {
                "reference": "https://example.com/Observation/541a72a8-df75-4484-ac89-ac4923f03b81"
              }
            ]
          },
          {
            "title": "Medications on Discharge",
            "code": {
              "coding": [
                {
                  "system": "http://loinc.org",
                  "code": "10183-2",
                  "display": "Hospital discharge medications Narrative"
                }
              ]
            },
            "text": {
              "status": "additional",
              "div": "<div xmlns=\"http://www.w3.org/1999/xhtml\">\n\n              <table>\n\n                <thead>\n\n                  <tr>\n\n                    <td>Medication</td>\n\n                    <td>Last Change</td>\n\n                    <td>Last ChangeReason</td>\n\n                  </tr>\n\n                </thead>\n\n                <tbody>\n\n                  <tr>\n\n                    <td>Theophylline 200mg BD after meals</td>\n\n                    <td>continued</td>\n\n                  </tr>\n\n                  <tr>\n\n                    <td>Ventolin Inhaler</td>\n\n                    <td>stopped</td>\n\n                    <td>Getting side effect of tremor</td>\n\n                  </tr>\n\n                </tbody>\n\n              </table>\n\n            </div>"
            },
            "entry": [
              {
                "reference": "https://example.com/MedicationRequest/124a6916-5d84-4b8c-b250-10cefb8e6e86"
              },
              {
                "reference": "https://example.com/MedicationStatement/673f8db5-0ffd-4395-9657-6da00420bbc1"
              }
            ]
          },
          {
            "title": "Known allergies",
            "code": {
              "coding": [
                {
                  "system": "http://loinc.org",
                  "code": "48765-2",
                  "display": "Allergies and adverse reactions Document"
                }
              ]
            },
            "text": {
              "status": "additional",
              "div": "<div xmlns=\"http://www.w3.org/1999/xhtml\">\n\n              <table>\n\n                <thead>\n\n                  <tr>\n\n                    <td>Allergen</td>\n\n                    <td>Reaction</td>\n\n                  </tr>\n\n                </thead>\n\n                <tbody>\n\n                  <tr>\n\n                    <td>Doxycycline</td>\n\n                    <td>Hives</td>\n\n                  </tr>\n\n                </tbody>\n\n              </table>\n\n            </div>"
            },
            "entry": [
              {
                "reference": "https://example.com/AllergyIntolerance/47600e0f-b6b5-4308-84b5-5dec157f7637"
              }
            ]
          }
        ]
      },
      "request": {
        "method": "POST",
        "url": "Composition"
      }
    },
    {
      "fullUrl": "https://example.com/Organization/2.16.840.1.113883.19.5",
      "resource": {
        "resourceType": "Organization",
        "id": "2.16.840.1.113883.19.5",
        "text": {
          "status": "generated",
          "div": "<div xmlns=\"http://www.w3.org/1999/xhtml\">\n      \n      <p>Good Health Clinic</p>\n    \n    </div>"
        },
        "identifier": [
          {
            "system": "urn:ietf:rfc:3986",
            "value": "2.16.840.1.113883.19.5"
          }
        ],
        "name": "Good Health Clinic"
      },
      "request": {
        "method": "POST",
        "url": "Organization"
      }
    },
    {
      "fullUrl": "https://example.com/Practitioner/example",
      "resource": {
        "resourceType": "Practitioner",
        "id": "example",
        "meta": {
          "lastUpdated": "2013-05-05T16:13:03Z"
        },
        "text": {
          "status": "generated",
          "div": "<div xmlns=\"http://www.w3.org/1999/xhtml\">\n\n            <p>Dr Adam Careful</p>\n\n          </div>"
        },
        "identifier": [
          {
            "system": "http://www.acme.org/practitioners",
            "value": "23"
          }
        ],
        "name": [
          {
            "family": "Careful",
            "given": [
              "Adam"
            ],
            "prefix": [
              "Dr"
            ]
          }
        ]
      },
      "request": {
        "method": "POST",
        "url": "Practitioner"
      }
    },
    {
      "fullUrl": "https://example.com/Practitioner/example2",
      "resource": {
        "resourceType": "Practitioner",
        "id": "example2",
        "meta": {
          "lastUpdated": "2013-05-05T16:13:03Z"
        },
        "text": {
          "status": "generated",
          "div": "<div xmlns=\"http://www.w3.org/1999/xhtml\">\n\n            <p>Dr BettaB Careful</p>\n\n          </div>"
        },
        "identifier": [
          {
            "system": "http://www.acme.org/practitioners",
            "value": "27"
          }
        ],
        "name": [
          {
            "family": "Careful",
            "given": [
              "BettaB"
            ],
            "prefix": [
              "Dr"
            ]
          }
        ]
      },
      "request": {
        "method": "POST",
        "url": "Practitioner"
      }
    },
    {
      "fullUrl": "https://example.com/Patient/d1",
      "resource": {
        "resourceType": "Patient",
        "id": "d1",
        "text": {
          "status": "generated",
          "div": "<div xmlns=\"http://www.w3.org/1999/xhtml\">\n\n            <h1>Eve Everywoman</h1>\n\n          </div>"
        },
        "active": true,
        "name": [
          {
            "text": "Eve Everywoman",
            "family": "Everywoman1",
            "given": [
              "Eve"
            ]
          }
        ],
        "telecom": [
          {
            "system": "phone",
            "value": "555-555-2003",
            "use": "work"
          }
        ],
        "gender": "female",
        "birthDate": "1955-01-06",
        "address": [
          {
            "use": "home",
            "line": [
              "2222 Home Street"
            ]
          }
        ]
      },
      "request": {
        "method": "POST",
        "url": "Patient"
      }
    },
    {
      "fullUrl": "https://example.com/Encounter/doc-example",
      "resource": {
        "resourceType": "Encounter",
        "id": "doc-example",
        "meta": {
          "lastUpdated": "2024-05-07T11:28:17.000+00:00"
        },
        "text": {
          "status": "generated",
          "div": "<div xmlns=\"http://www.w3.org/1999/xhtml\"> Admitted to Orthopedics Service,\n                        Middlemore Hospital between Jan 20 and Feb ist 2013 </div>"
        },
        "identifier": [
          {
            "value": "S100"
          }
        ],
        "status": "finished",
        "class": {
          "system": "http://terminology.hl7.org/CodeSystem/v3-ActCode",
          "code": "IMP",
          "display": "inpatient encounter"
        },
        "type": [
          {
            "text": "Orthopedic Admission"
          }
        ],
        "subject": {
          "reference": "https://example.com/Patient/d1",
          "display": "Eve Everywoman"
        },
        "period": {
          "start": "2024-05-03T13:28:17.000+00:00",
          "end": "2024-05-07T11:28:17.000+00:00"
        },
        "hospitalization": {
          "dischargeDisposition": {
            "text": "Discharged to care of GP"
          }
        }
      },
      "request": {
        "method": "POST",
        "url": "Encounter"
      }
    },
    {
      "fullUrl": "https://example.com/Observation/541a72a8-df75-4484-ac89-ac4923f03b81",
      "resource": {
        "resourceType": "Observation",
        "meta": {
          "lastUpdated": "2024-05-03T14:28:17.000+00:00"
        },
        "id": "541a72a8-df75-4484-ac89-ac4923f03b81",
        "text": {
          "status": "additional",
          "div": "<div xmlns=\"http://www.w3.org/1999/xhtml\"> Acute Asthmatic attack. Was wheezing\n                        for days prior to admission. </div>"
        },
        "status": "final",
        "code": {
          "coding": [
            {
              "system": "http://loinc.org",
              "code": "46241-6"
            }
          ],
          "text": "Reason for admission"
        },
        "subject": {
          "reference": "https://example.com/Patient/d1",
          "display": "Eve Everywoman"
        },
        "encounter": {
          "reference": "https://example.com/Encounter/doc-example"
        },
        "valueString": "Acute Asthmatic attack. Was wheezing for days prior to admission."
      },
      "request": {
        "method": "POST",
        "url": "Observation"
      }
    },
    {
      "fullUrl": "https://example.com/MedicationRequest/124a6916-5d84-4b8c-b250-10cefb8e6e86",
      "resource": {
        "resourceType": "MedicationRequest",
        "meta": {
          "lastUpdated": "2024-05-07T11:28:17.000+00:00"
        },
        "id": "124a6916-5d84-4b8c-b250-10cefb8e6e86",
        "text": {
          "status": "generated",
          "div": "<div xmlns=\"http://www.w3.org/1999/xhtml\">\n\n            <p>Theophylline 200mg twice a day</p>\n\n          </div>"
        },
        "status": "unknown",
        "intent": "order",
        "medicationCodeableConcept": {
          "coding": [
            {
              "system": "http://snomed.info/sct",
              "code": "66493003"
            }
          ],
          "text": "Theophylline 200mg"
        },
        "subject": {
          "reference": "https://example.com/Patient/d1",
          "display": "Eve Everywoman"
        },
        "requester": {
          "reference": "https://example.com/Practitioner/example",
          "display": "Peter Practitioner"
        },
        "reasonCode": [
          {
            "text": "Management of Asthma"
          }
        ],
        "dosageInstruction": [
          {
            "additionalInstruction": [
              {
                "text": "Take with Food"
              }
            ],
            "timing": {
              "repeat": {
                "frequency": 2,
                "period": 1,
                "periodUnit": "d"
              }
            },
            "route": {
              "coding": [
                {
                  "system": "http://snomed.info/sct",
                  "code": "394899003",
                  "display": "oral administration of treatment"
                }
              ]
            },
            "doseAndRate": [
              {
                "type": {
                  "coding": [
                    {
                      "system": "http://terminology.hl7.org/CodeSystem/dose-rate-type",
                      "code": "ordered",
                      "display": "Ordered"
                    }
                  ]
                },
                "doseQuantity": {
                  "value": 1,
                  "unit": "tablet",
                  "system": "http://unitsofmeasure.org",
                  "code": "tbl"
                }
              }
            ]
          }
        ]
      },
      "request": {
        "method": "POST",
        "url": "MedicationRequest"
      }
    },
    {
      "fullUrl": "https://example.com/MedicationStatement/673f8db5-0ffd-4395-9657-6da00420bbc1",
      "resource": {
        "resourceType": "MedicationStatement",
        "id": "673f8db5-0ffd-4395-9657-6da00420bbc1",
        "text": {
          "status": "generated",
          "div": "<div xmlns=\"http://www.w3.org/1999/xhtml\">\n\n            <p>Ventolin inhaler discontinued</p>\n\n          </div>"
        },
        "status": "active",
        "statusReason": [
          {
            "text": "Management of Asthma"
          }
        ],
        "medicationCodeableConcept": {
          "text": "Ventolin Inhaler"
        },
        "subject": {
          "reference": "https://example.com/Patient/d1",
          "display": "Eve Everywoman"
        },
        "dateAsserted": "2024-05-07T11:28:17.000+00:00"
      },
      "request": {
        "method": "POST",
        "url": "MedicationStatement"
      }
    },
    {
      "fullUrl": "https://example.com/AllergyIntolerance/47600e0f-b6b5-4308-84b5-5dec157f7637",
      "resource": {
        "resourceType": "AllergyIntolerance",
        "meta": {
          "lastUpdated": "2024-05-07T11:28:17.000+00:00"
        },
        "id": "47600e0f-b6b5-4308-84b5-5dec157f7637",
        "text": {
          "status": "generated",
          "div": "<div xmlns=\"http://www.w3.org/1999/xhtml\">Sensitivity to Doxycycline :\n                        Hives</div>"
        },
        "clinicalStatus": {
          "coding": [
            {
              "system": "http://terminology.hl7.org/CodeSystem/allergyintolerance-clinical",
              "code": "active",
              "display": "Active"
            }
          ]
        },
        "verificationStatus": {
          "coding": [
            {
              "system": "http://terminology.hl7.org/CodeSystem/allergyintolerance-verification",
              "code": "confirmed",
              "display": "Confirmed"
            }
          ]
        },
        "type": "allergy",
        "criticality": "high",
        "code": {
          "text": "Doxycycline"
        },
        "patient": {
          "reference": "https://example.com/Patient/d1",
          "display": "Eve Everywoman"
        },
        "recordedDate": "2012-09-17",
        "reaction": [
          {
            "manifestation": [
              {
                "coding": [
                  {
                    "system": "http://example.org/system",
                    "code": "xxx",
                    "display": "Hives"
                  }
                ],
                "text": "Hives"
              }
            ]
          }
        ]
      },
      "request": {
        "method": "POST",
        "url": "AllergyIntolerance"
      }
    }
  ]
}